Time_Stamp;Ax;Ay;Az;Gx;Gy;Gz;Mx;My;Mz;Activity_Label1,3644E+12;2,0158114;6,101916;4,739881;-1,0241156;-0,5195409;-0,6942484;-25,56;-29,22;-14,34;?1,3644E+12;2,2473574;6,4832854;4,5628166;-0,85062987;-0,4156938;-0,84788096;-25,859999;-28,98;-14,34;?1,3644E+12;2,1247742;7,000859;4,276789;-0,5699373;-0,39736784;-1,0894781;-26,16;-28,619999;-14,46;?1,3644E+12;1,8932283;7,2596455;4,167826;-0,4007276;-0,5558874;-1,2305881;-26,16;-28,5;-14,7;?1,3644E+12;1,7570249;7,6137743;3,800077;-0,21930063;-0,8219192;-1,3680327;-26,16;-28,32;-14,94;?1,3644E+12;1,7297841;8,580819;2,9283748;0,002138028;-1,146594;-1,5464053;-26,099998;-28,199999;-15,24;?1,3644E+12;2,2882185;9,180115;2,669588;0,24465153;-1,3997977;-1,7767016;-26,039999;-28,199999;-15,24;?1,3644E+12;2,7785509;9,901993;2,2473574;0,49846604;-1,5048665;-2,0167716;-25,74;-28,26;-15,36;?1,3644E+12;3,2961242;11,250407;1,8387469;0,83169305;-1,5482379;-2,2666154;-25,32;-28,56;-15,36;?1,3644E+12;3,1190596;13,429663;1,4709976;1,1472049;-1,643533;-2,5421157;-24,359999;-29,279999;-15,599999;?1,3644E+12;2,9964764;12,6669235;1,8932283;1,3561208;-2,176513;-2,5940392;-23,76;-29,82;-15,299999;?1,3644E+12;3,2007818;11,863323;2,2473574;1,536326;-2,3225098;-2,483778;-23,279999;-30,359999;-15,12;?1,3644E+12;3,2007818;11,863323;2,2473574;1,7971655;-1,7742581;-2,3313673;-23,279999;-30,359999;-15,12;?1,3644E+12;3,2007818;11,863323;2,2473574;2,0555615;-0,7443393;-2,1743748;-23,279999;-30,359999;-15,12;?1,3644E+12;3,0373375;11,74074;2,4789033;2,2498167;0,5503896;-1,8762726;-21,42;-31,98;-14,28;?1,3644E+12;1,7570249;11,727119;2,506144;2,2256875;0,7263188;-1,7614299;-20,34;-32,88;-13,679999;?1,3644E+12;0,7354988;11,563675;2,7240696;2,0073032;0,3885103;-1,4743233;-18,18;-34,62;-12,36;?1,3644E+12;0,013620348;10,923519;3,1871614;1,8216002;-0,3472769;-1,3451253;-15,78;-36,54;-10,559999;?1,3644E+12;0,16344418;10,56939;3,568531;1,5418239;-1,0528263;-1,2962561;-14,58;-37,5;-9,48;?1,3644E+12;0,6810174;9,39804;4,167826;1,29198;-1,4709635;-1,29198;-12,12;-39,18;-7,3799996;?1,3644E+12;1,2803127;7,504812;4,344891;1,0528263;-1,7085901;-1,1746938;-9,599999;-40,739998;-5,04;?1,3644E+12;1,9749504;6,197258;4,576437;0,8008443;-1,7391334;-0,94134337;-7,3799996;-42,12;-2,6399999;?1,3644E+12;2,3971813;5,802268;4,7535014;0,72021013;-1,3741413;-0,8732319;-5,1;-43,02;-0,53999996;?1,3644E+12;2,383561;6,1563973;4,7262607;0,6783658;-0,8912524;-0,8414669;-3,72;-43,5;1,38;?1,3644E+12;2,2064962;6,851035;4,508335;0,6123924;-0,49693888;-0,81031275;-2,3999999;-43,68;3;?1,3644E+12;2,070293;7,3413672;4,0861044;0,5174029;-0,32436943;-0,7367035;-1,5;-43,62;4,2599998;?1,3644E+12;2,002191;8,185829;3,6638734;0,453262;-0,38240165;-0,6105598;-0,53999996;-43,44;5,2799997;?1,3644E+12;2,4925237;9,193735;3,3778462;0,46273044;-0,42455134;-0,5128214;0,35999998;-43,44;6,24;?1,3644E+12;3,255263;9,833891;3,6230125;0,5748242;-0,012522738;-0,36163223;0,71999997;-43,44;6,48;?1,3644E+12;3,8954194;10,446807;4,3585114;0,6243043;0,23273966;-0,3210097;1,4399999;-43,379997;7,14;?1,3644E+12;3,92266;10,269742;4,944186;0,6072;1,0754282;-0,10262536;1,68;-43,2;7,3799996;?1,3644E+12;2,6423476;8,253931;4,630918;0,4550946;1,5537357;0,1328632;2,04;-43,26;7,68;?1,3644E+12;1,6344417;7,177923;4,372132;0,22021692;1,7742581;0,45875978;2,1599998;-43,379997;7,98;?1,3644E+12;-1,1577295;3,3097446;3,255263;0,030543262;1,5824465;0,8127562;2,3999999;-43,32;8,099999;?1,3644E+12;-2,9283748;-0,027240695;2,6832085;0,029321533;1,1869112;0,9575313;2,3999999;-43,2;8,22;?1,3644E+12;-3,3778462;-1,2803127;2,4516625;0,057726767;1,2681563;0,73914695;2,3999999;-43,14;8,28;?1,3644E+12;-4,7943625;-3,636633;0,12258313;0,074830994;1,2342533;0,5363397;2,1599998;-43,379997;8,34;?1,3644E+12;-1,8115063;0,20430522;-1,2803127;0,27885997;1,3481796;0,028099801;1,56;-43,62;8,4;?1,3644E+12;-0,17706452;5,134871;-1,920469;0,49754974;1,806634;-0,6188065;1,38;-43,62;8,34;?1,3644E+12;3,7047346;18,700737;-3,445948;-0,11484267;1,7889189;-1,0888673;0,9;-43,62;8,4;?1,3644E+12;5,3119354;19,477097;-3,4187074;-1,2311989;-0,7706065;-1,6267341;0,59999996;-43,68;8,04;?1,3644E+12;2,5742457;14,042579;-4,2495484;-1,7015651;-1,5268577;-0,39003745;0,78;-43,68;7,2599998;?1,3644E+12;-0,43585113;10,392325;-2,8330324;-1,2712106;-0,9447031;0,6038403;0,9;-43,68;7,02;?1,3644E+12;-4,399372;6,4015636;-0,06810174;-0,8072584;-0,64843345;1,3100005;1,3199999;-43,86;6,24;?1,3644E+12;-4,440233;5,611583;0,54481393;-0,786489;-0,8063421;1,4563028;1,62;-44,04;5,46;?1,3644E+12;-3,4187074;5,570722;0,05448139;-0,8900307;-1,3585643;1,3014483;1,74;-43,92;5,04;?1,3644E+12;-2,5606253;4,195067;0,38136974;-0,8863655;-1,779756;1,1795808;2,1599998;-43,92;4,2;?1,3644E+12;-2,083913;3,4187074;1,1849703;-0,7104363;-1,2980887;0,68844515;2,3999999;-44,1;3,6;?1,3644E+12;-0,17706452;2,7921712;2,7240696;-0,5158757;-0,46028697;0,1554652;2,46;-44,1;2,52;?1,3644E+12;2,547005;6,183638;2,9556155;-0,40133846;0,2049453;0,16218472;2,3999999;-44,219997;1,62;?1,3644E+12;3,0781987;8,022385;2,4108016;-0,10720685;1,2382239;0,18967366;2,22;-44,28;1,1999999;?1,3644E+12;4,535576;18,79608;4,195067;0,51159966;2,552195;-0,08460484;1,5;-44,219997;0,59999996;?1,3644E+12;4,3176503;19,477097;7,804459;0,84391034;2,7656925;-0,9935723;0,96;-44,16;0,17999999;?1,3644E+12;4,780742;19,517958;8,512717;1,201572;2,2715025;-0,7312057;0,9;-44,219997;-0,12;?1,3644E+12;-0,16344418;15,540816;6,2108784;0,34391713;1,9550742;-0,07238753;0,59999996;-44,28;-0,17999999;?1,3644E+12;-2,4516625;7,84532;4,385752;-0,29168814;1,4132367;1,3435981;0,59999996;-44,34;-0,35999998;?1,3644E+12;-2,2473574;6,5650077;3,4187074;-0,19333886;1,6807957;2,01219;0,53999996;-44,219997;-0,24;?1,3644E+12;-3,2825038;5,175732;2,1792557;-0,13103059;2,2434027;1,5311338;0,29999998;-43,98;-0,06;?1,3644E+12;-3,5957718;2,152015;2,4108016;-0,25534168;2,115121;0,9969321;0,06;-43,92;0,06;?1,3644E+12;-2,6968288;-1,1168685;3,091819;-0,4642576;1,4422529;0,5412266;-0,06;-43,8;0,06;?1,3644E+12;-2,0294318;-2,6968288;3,336985;-0,6899723;0,8026769;0,1994475;-0,12;-43,92;-0,06;?1,3644E+12;-0,3677494;-3,7728362;2,4925237;-0,68661255;0,9443977;0,23732115;-0,48;-43,98;-0,35999998;?1,3644E+12;-0,40861043;-0,54481393;-0,23154591;-0,58551437;2,179567;0,30390546;-1,02;-43,86;-0,71999997;?1,3644E+12;-0,32688835;1,1441092;-1,2122109;-0,5161811;2,590374;-0,01740966;-1,3199999;-43,68;-1,0799999;?1,3644E+12;0,54481393;6,3334618;-3,0100968;-0,6053675;2,254398;-0,40500367;-2,04;-43,44;-1,8;?1,3644E+12;2,1111538;12,626062;-3,1599207;-0,883922;0,6554584;-0,7113526;-2,6399999;-43,44;-2,6399999;?1,3644E+12;2,5197644;17,924377;-3,1871614;-0,9825767;-1,103528;-0,7171558;-2,82;-43,5;-3,12;?1,3644E+12;4,0180025;19,422615;-2,9283748;-0,7128797;-2,313652;-0,8680395;-2,8799999;-43,32;-4,14;?1,3644E+12;5,284695;19,517958;0,19068487;-0,35460728;-2,1450534;-0,8445212;-2,7;-43,14;-4,92;?1,3644E+12;4,535576;17,325083;0,8308412;-0,46853364;-1,4208726;-0,729984;-2,6399999;-43,02;-5,22;?1,3644E+12;1,7570249;11,699879;0,2860273;-0,64934975;-1,0974194;-0,2742785;-2,28;-42,78;-5,8799996;?1,3644E+12;-0,54481393;6,4424243;1,0623871;-0,2302962;-0,83169305;0,46883908;-1,86;-42,6;-6,66;?1,3644E+12;-1,1849703;5,2165933;1,7161638;0,23060162;-0,38698313;0,5271767;-1,74;-42,54;-6,96;?1,3644E+12;-2,1111538;2,901134;3,4731886;0,4908302;-0,06841691;0,5183192;-1,3199999;-42,3;-7,3199997;?1,3644E+12;0,35412905;5,87037;4,8760843;0,55863625;0,16157386;0,473726;-1,0799999;-42,12;-7,44;?1,3644E+12;1,525479;9,833891;5,6524444;0,32345316;0,7296785;0,43951756;-0,9;-41,94;-7,5;?1,3644E+12;2,7921712;18,510052;8,975809;-0,39920044;0,7244862;0,66553766;-0,78;-41,64;-7,62;?1,3644E+12;5,407278;19,463476;8,7034025;0,52534413;0,18387043;0,40775254;-0,65999997;-41,579998;-7,3799996;?1,3644E+12;5,09401;19,504337;7,7772183;0,8900307;0,03481932;-0,2574797;-0,59999996;-41,46;-7,2599998;?1,3644E+12;3,214402;18,510052;6,701211;0,5552765;-0,05589417;-0,12308934;-0,53999996;-41,52;-7,2;?1,3644E+12;-0,25878662;13,68845;5,0259085;0,16279559;-0,6123924;0,55924714;-0,84;-41,16;-6,96;?1,3644E+12;-2,2882185;9,901993;3,92266;0,046120327;-1,2819008;1,2400564;-0,84;-41,1;-6,66;?1,3644E+12;-2,5606253;7,709117;3,6093922;0,15424347;-1,3381003;1,185384;-1,02;-41,16;-6,48;?1,3644E+12;-1,5935807;4,69902;3,5140498;0,16279559;-1,0577132;1,058324;-1,14;-41,16;-6,42;?1,3644E+12;0,40861043;-0,3405087;4,6172976;0,15302174;0,26816985;0,93767816;-1,8;-40,92;-6,2999997;?1,3644E+12;1,1577295;-2,73769;5,012288;0,3378085;1,9996674;0,70280045;-1,9799999;-40,92;-6,12;?1,3644E+12;1,0079057;-5,1621118;4,8352237;0,56016344;3,4950655;0,65057147;-2,52;-40,92;-6,12;?1,3644E+12;-0,47671217;-0,8580819;3,7455957;0,59131753;4,1077633;0,6969972;-3,3;-41,04;-6,12;?1,3644E+12;-0,3405087;1,9068487;2,5742457;0,2947425;4,0472875;0,4972443;-4,2599998;-40,86;-5,94;?1,3644E+12;-0,3405087;2,6423476;1,879608;-0,10170906;3,638619;0,29718593;-4,5;-40,86;-6;?1,3644E+12;0,9670447;5,1621118;-0,040861044;-0,31398472;3,1774156;0,050396383;-5,52;-40,86;-5,94;?1,3644E+12;1,8387469;10,800936;-1,5390993;-0,1881465;2,6062565;-0,569021;-6,2999997;-40,8;-6,12;?1,3644E+12;2,1792557;16,589584;-2,383561;0,027183503;2,0638082;-1,0458013;-6,66;-40,68;-6,24;?1,3644E+12;2,6014864;19,340895;-4,9578066;-0,17684549;0,63194007;-1,4563028;-7,02;-40,5;-6,48;?1,3644E+12;3,636633;19,504337;-0,61291564;-1,4810427;-1,4953982;-1,3720033;-6,8399997;-40,26;-6,72;?1,3644E+12;3,7319753;16,712166;1,3211738;-1,3072516;-2,361605;-0,6068946;-6,72;-40,079998;-7,14;?1,3644E+12;2,0975335;12,762266;1,3484144;-0,7635816;-2,399784;-0,4474588;-6,6;-39,84;-7,3199997;?1,3644E+12;0,55843425;8,322033;1,0760075;-0,41538838;-2,6169467;0,025045475;-6,06;-39,6;-8,099999;?1,3644E+12;1,0215261;7,8589406;1,0215261;-0,10262536;-2,7953193;0,4465425;-5,7599998;-39,48;-8,34;?1,3644E+12;1,8387469;8,471856;1,7025435;0,0571159;-2,531731;0,68783426;-5,4;-39,12;-8,7;?1,3644E+12;2,2473574;8,417375;2,7649305;0,050396383;-1,6209309;0,73273283;-5,16;-39;-8,7;?1,3644E+12;1,1577295;9,41166;3,636633;0,11759156;-0,49357912;0,59986967;-5,1;-38,76;-8,639999;?1,3644E+12;0,89894295;10,18802;4,2223077;0,45112398;0,8228355;0,2565634;-5,1;-38,879997;-8,7;?1,3644E+12;0,8580819;11,018862;5,407278;0,72387534;1,3362677;0,07819075;-5,3399997;-38,879997;-8,58;?1,3644E+12;2,315459;13,933616;6,006573;0,91874135;1,7079792;-0,16340645;-5,8199997;-38,76;-8,16;?1,3644E+12;4,004382;18,251266;6,7148314;1,1835514;2,0873265;-0,50823987;-5,8199997;-38,82;-7,98;?1,3644E+12;5,5434813;19,477097;7,2187843;1,6881261;2,6438248;-0,88178396;-6,06;-38,94;-7,2599998;?1,3644E+12;3,0645783;17,434046;5,3527966;1,7705929;3,3276885;-0,91965765;-6;-39,059998;-6,48;?1,3644E+12;-1,9749504;10,147159;4,385752;0,96974856;3,277292;-0,56413406;-5,94;-39,18;-6,18;?1,3644E+12;-2,6423476;7,5865335;4,69902;-0,014660766;1,4624114;0,47891834;-5,7599998;-39,18;-5,4;?1,3644E+12;-1,1441092;5,4890003;4,3312707;-0,015271631;0,54092115;0,9108001;-5,4;-39,239998;-5,1;?1,3644E+12;-0,5992953;5,761407;3,990762;0,057421334;0,23304509;0,75441855;-5,22;-39,36;-4,74;?1,3644E+12;0,8308412;6,2244987;4,1269655;0,099571034;0,14294247;0,6038403;-5,1;-39,3;-4,08;?1,3644E+12;2,506144;5,7477865;4,930566;0,13316862;0,39553526;0,39920044;-4,98;-39,36;-3,3;?1,3644E+12;3,6230125;5,5843425;5,175732;0,28130344;1,0806206;0,15241088;-4,8599997;-39,54;-3;?1,3644E+12;3,990762;5,9248514;5,407278;0,4578435;2,4791965;0,03268129;-4,8599997;-39,48;-2,52;?1,3644E+12;3,7728362;5,87037;4,9986677;0,36285394;3,1535919;0,21777347;-4,8599997;-39,42;-2,3999999;?1,3644E+12;3,7319753;7,1915436;3,8545585;0,2864958;3,5622606;0,47494772;-5,46;-39,36;-2,04;?1,3644E+12;3,840938;12,54434;2,3971813;0,398895;4,1673226;0,43890667;-5,94;-39,54;-1,68;?1,3644E+12;3,3233647;14,6827345;1,5390993;0,4370741;4,5921793;0,21563543;-6,12;-39,66;-1,56;?1,3644E+12;1,4301366;17,379564;-1,0351465;0,00702495;3,7971385;-0,14905111;-6,66;-39,78;-1,1999999;?1,3644E+12;0,27240697;16,930092;-1,5390993;-0,34391713;2,355191;-0,36957347;-7,2;-40,02;-1,02;?1,3644E+12;0,6401563;16,970953;-1,1577295;-0,52687126;0,8542951;-0,39706242;-7,56;-40,14;-1,02;?1,3644E+12;1,1577295;16,289936;-0,92618364;-0,7620544;-0,5934556;-0,06169739;-8,22;-40,44;-1,14;?1,3644E+12;2,2882185;12,966571;-2,4516625;-0,7257079;-1,4816537;0,43218717;-9,12;-40,8;-1,26;?1,3644E+12;2,9147544;10,55577;-2,8466527;-0,35643986;-1,2873985;0,8173377;-9,84;-41,04;-1,1999999;?1,3644E+12;2,73769;8,430995;-3,2825038;0,03390302;-0,355829;1,131017;-11,4;-41,46;-1,1999999;?1,3644E+12;1,8659877;7,763598;-3,091819;0,30298916;1,2226468;1,0931433;-13,0199995;-41,579998;-1,14;?1,3644E+12;0,89894295;7,246025;-2,9964764;0,25992316;1,8713857;0,9440922;-13,92;-41,82;-1,26;?1,3644E+12;-0,8580819;6,7284517;-2,7513103;0,15057829;2,0598376;0,6918049;-15,839999;-42;-1,8;?1,3644E+12;-0,8580819;6,7284517;-2,7513103;0,013744468;1,7122552;0,48899764;-15,839999;-42;-1,8;?1,3644E+12;-2,0430522;6,742072;-1,0623871;-0,38453966;0,6282749;0,27916542;-17,64;-42,239998;-2,3999999;?1,3644E+12;-1,8387469;5,9248514;0,013620348;-0,5366451;0,28802297;0,21502456;-19,26;-42,54;-3,24;?1,3644E+12;-1,56634;5,87037;0,2860273;-0,72173727;-0,6374379;0,07452556;-20,1;-42,6;-3,72;?1,3644E+12;0,05448139;7,981524;1,2666923;-0,57451874;-1,0574077;0,21319197;-22,5;-42,899998;-4,62;?1,3644E+12;0,9125633;9,00305;1,9749504;-0,50946164;-0,97249746;0,29657507;-22,98;-42,899998;-5,16;?1,3644E+12;1,7161638;10,869038;2,901134;-0,36071593;-0,56046885;0,44043383;-23,699999;-42,899998;-6;?1,3644E+12;2,192876;13,048293;3,1054392;-0,22785273;0,04642576;0,47525316;-24,359999;-42,719997;-6,8399997;?1,3644E+12;2,192876;13,797412;3,1190596;-0,12156218;0,68416905;0,40317106;-24,72;-42,48;-7,14;?1,3644E+12;1,1032481;13,007432;3,0237172;0,02321288;1,638646;0,37995818;-25,08;-42,3;-7,62;?1,3644E+12;0,05448139;11,277648;2,506144;-0,02687807;1,8438967;0,5900958;-25,38;-42,059998;-8,22;?1,3644E+12;-0,89894295;11,264028;1,8932283;-0,082161374;1,5381587;0,7290677;-25,619999;-41,82;-8,639999;?1,3644E+12;-1,0760075;11,890564;1,484618;-0,115453534;0,98471475;0,7965683;-25,68;-41,7;-9,179999;?1,3644E+12;-0,21792556;11,304889;1,7025435;-0,09987647;0,5552765;0,8381071;-25,92;-41,28;-9,9;?1,3644E+12;0,23154591;9,833891;1,9340894;-0,042455133;0,0852157;0,7840455;-26,279999;-40,8;-10,26;?1,3644E+12;0,313268;8,975809;1,9885708;0,050701816;-0,17989981;0,6017023;-26,519999;-40,739998;-10,679999;?1,3644E+12;0,24516626;7,3958488;2,1247742;0,16310102;-0,21410827;0,38087448;-26,64;-40,8;-10,92;?1,3644E+12;0,013620348;5,5843425;2,1247742;0,26816985;-0,13255776;0,16493362;-27;-40,8;-11,82;?1,3644E+12;-0,61291564;3,568531;2,0566726;0,3359759;-0,015577064;-6,11E-04;-27,42;-40,92;-12,3;?1,3644E+12;-1,6480621;0,88532263;1,5118586;0,38331795;0,10170906;-0,14385876;-28,019999;-40,92;-12,42;?1,3644E+12;-2,3290794;-1,9340894;1,3620348;0,4560109;0,50488013;-0,27916542;-28,619999;-41,16;-12,54;?1,3644E+12;-2,6151068;-3,1871614;1,607201;0,5030475;1,1181889;-0,27550024;-29,279999;-40,98;-12,36;?1,3644E+12;-2,4244218;-1,3075534;1,4165162;0,50610185;1,4446963;-0,27397305;-29,46;-40,86;-12,24;?1,3644E+12;-2,3971813;2,0294318;0,626536;0,34788775;1,8881844;-0,43768495;-29,82;-40,98;-11,94;?1,3644E+12;-0,61291564;8,648921;-0,38136974;0,18112154;1,6914859;-0,74067414;-30,3;-40,86;-12;?1,3644E+12;1,0215261;16,644066;-1,6344417;-0,005192355;1,0403035;-1,1560625;-30,42;-40,62;-11,7;?1,3644E+12;3,091819;19,16383;-2,1247742;0,6059783;-0,4334089;-1,6975945;-30,539999;-40,379997;-11,58;?1,3644E+12;7,1915436;19,517958;-1,920469;0,90133166;-0,5891795;-1,6526959;-30,48;-40,32;-10,98;?1,3644E+12;5,09401;16,45338;-2,2201166;0,41447207;0,51923543;-0,9673051;-30,24;-39,96;-10,559999;?1,3644E+12;2,7921712;13,429663;-1,0760075;0,21105394;1,0170907;-0,043982297;-30,06;-39,84;-10,26;?1,3644E+12;-2,547005;8,322033;1,293933;0,21655174;0,6252206;0,8790351;-29,519999;-39,42;-9,84;?1,3644E+12;-2,547005;8,322033;1,293933;-0,058337633;-1,1976013;1,0824533;-29,519999;-39,42;-9,84;?1,3644E+12;-0,7763598;6,932757;2,6014864;-0,13408493;-1,5906931;0,947452;-29,279999;-39,12;-9,599999;?1,3644E+12;0,44947147;5,965712;3,1463003;-0,22296582;-1,7693712;0,6899723;-29,039999;-38,76;-9,059999;?1,3644E+12;0,95342433;5,1484914;3,5140498;-0,21074851;-1,5506815;0,3231477;-28,92;-38,46;-8,82;?1,3644E+12;0,50395286;1,879608;3,5549107;-0,18020524;-1,1972959;-0,1328632;-28,619999;-37,86;-7,98;?1,3644E+12;-0,17706452;1,3484144;2,969236;-0,19058995;-0,91904676;-0,16707164;-28,32;-37,5;-7,62;?1,3644E+12;-0,027240695;3,5549107;2,5197644;-0,17989981;-0,6899723;-0,20922135;-28,08;-37,14;-7,02;?1,3644E+12;1,3756552;8,866846;2,587866;-0,19272798;-0,6230826;-0,21319197;-27,9;-36,78;-6,42;?1,3644E+12;3,255263;15,350132;3,13268;-0,22815818;-0,57604593;-0,14080444;-27,84;-36,36;-6;?1,3644E+12;4,508335;18,482811;3,6774938;0,24862215;-0,21777347;-0,5222898;-27,599998;-35,88;-5,58;?1,3644E+12;6,9599977;19,545198;4,0588636;1,138042;0,9297369;-0,9575313;-27,48;-35,219997;-4,98;?1,3644E+12;4,8216033;16,821129;2,0566726;0,743423;2,275473;0,10995574;-27,3;-35,04;-4,56;?1,3644E+12;-0,35412905;11,672638;3,9090397;0,48197266;2,900999;1,3283265;-27,119999;-34,38;-4,14;?1,3644E+12;-1,253072;10,855417;3,8954194;0,32498032;2,5692992;1,9080375;-27,18;-34,02;-3,8999999;?1,3644E+12;-1,9749504;9,166494;3,255263;0,19639318;1,6679676;1,8387043;-27,3;-33,66;-3,78;?1,3644E+12;-2,2882185;4,467474;2,7240696;0,06963864;0,38728857;1,1175779;-27,42;-32,94;-3,84;?1,3644E+12;-2,2473574;1,7297841;2,6832085;0,034513887;0,062308256;0,8888089;-27,359999;-32,579998;-3,84;?1,3644E+12;-2,192876;-0,6537767;2,6832085;-0,070554934;0,09193522;0,5021312;-27,359999;-32,219997;-4,14;?1,3644E+12;-2,2473574;-2,6968288;2,6968288;-0,03756821;0,86742866;0,40133846;-27,42;-31,92;-4,8599997;?1,3644E+12;-2,1247742;-0,5720546;1,7297841;-0,015882496;2,0134118;0,27214047;-27,599998;-31,56;-6,12;?1,3644E+12;-1,9885708;2,2609777;0,05448139;-0,030543262;2,2134702;0,16982053;-27,66;-31,439999;-6,72;?1,3644E+12;-1,6753027;4,8216033;-1,6344417;-0,31978795;2,038152;-0,22785273;-27,84;-31,38;-7,3799996;?1,3644E+12;-0,980665;8,281172;-2,669588;-0,6395759;1,1322387;-0,56505036;-27,96;-31,32;-8,16;?1,3644E+12;0,9125633;17,297842;-3,92266;-0,94042706;-0,037873644;-1,0189233;-27,96;-30,96;-10,08;?1,3644E+12;2,4108016;19,245552;-3,5549107;-0,893085;-1,2076806;-1,4422529;-28,08;-30,72;-10,8;?1,3644E+12;5,829509;19,517958;-1,607201;-0,23426682;-2,2153027;-1,8423696;-27,9;-30,539999;-11,94;?1,3644E+12;4,903325;16,140112;-1,3484144;-0,109650314;-2,0033326;-1,5928311;-27,72;-30,539999;-12,3;?1,3644E+12;1,8659877;10,991621;0,4903325;-0,21471913;-0,625526;0,10048734;-27,48;-30,539999;-12,599999;?1,3644E+12;0,40861043;9,384419;1,8523673;0,041233405;-0,105374254;0,786489;-27,3;-30,599998;-13,08;?1,3644E+12;-1,2258313;6,742072;4,630918;0,12583824;0,29443705;0,86376345;-26,939999;-30,539999;-13,799999;?1,3644E+12;-0,6401563;6,1563973;4,9169455;0,0693332;0,700357;0,6041457;-26,699999;-30,599998;-14,099999;?1,3644E+12;0,8308412;4,0180025;5,339176;-0,093462385;1,0864239;0,2180789;-25,98;-30,599998;-14,46;?1,3644E+12;1,1849703;2,73769;5,202973;-0,16707164;1,6245961;-0,09743301;-25,56;-30,72;-14,639999;?1,3644E+12;1,4437568;2,0566726;4,0588636;-0,02443461;2,0998492;-0,074830994;-24,779999;-30,779999;-15,059999;?1,3644E+12;1,4437568;2,0566726;4,0588636;0,09712757;2,3790147;-0,14294247;-24,779999;-30,779999;-15,059999;?1,3644E+12;1,8659877;5,6660647;3,7728362;-0,59620446;2,2235496;-0,28619036;-24,48;-30,779999;-15,299999;?1,3644E+12;0,29964766;18,700737;7,3005066;-1,1624765;-0,5561928;0,15027285;-23,699999;-30,66;-15,66;?1,3644E+12;8,839605;19,504337;5,570722;-0,44990227;-2,2602015;-0,30879238;-22,439999;-30,539999;-16,56;?1,3644E+12;9,030291;19,477097;5,066769;-0,14019357;-1,4178182;-0,31245756;-21,96;-30,3;-17,16;?1,3644E+12;6,0610547;15,540816;4,767122;-0,16646078;0,41447207;0,8390234;-21,359999;-29,939999;-17,82;?1,3644E+12;1,7161638;8,417375;3,9635212;-0,410196;2,7580566;2,44621;-20,1;-29,46;-19,02;?1,3644E+12;-0,7082581;6,0610547;3,3233647;-0,56413406;3,350596;2,4471262;-19,32;-29,039999;-19,74;?1,3644E+12;-3,0645783;1,7297841;2,083913;-0,6814202;3,1358767;2,0317378;-17,76;-28,56;-21,359999;?1,3644E+12;-2,7785509;-0,12258313;1,8932283;-0,7632761;2,4233024;1,5741998;-17,039999;-28,199999;-22,14;?1,3644E+12;-2,192876;-0,87170225;1,7842655;-0,81214535;1,842675;1,2137892;-16,199999;-27,96;-23,1;?1,3644E+12;-1,7434045;-0,8036005;1,96133;-0,8210029;1,8787161;0,960891;-15,599999;-27,66;-24;?1,3644E+12;-0,50395286;0,8308412;2,2882185;-0,9388999;2,3463335;0,7892379;-14,28;-27,06;-25,74;?1,3644E+12;0,313268;2,73769;1,9749504;-1,0638218;2,6004534;0,7644979;-13,679999;-26,64;-26,34;?1,3644E+12;1,0896279;5,5434813;1,96133;-1,1786644;2,5439484;0,7623598;-13,259999;-26,16;-27,06;?1,3644E+12;3,7728362;13,865514;2,3290794;-1,1160508;2,289523;0,6407976;-12,36;-25,32;-28,38;?1,3644E+12;3,7728362;13,865514;2,3290794;-0,6087272;2,0760255;0,07880162;-12,36;-25,32;-28,38;?1,3644E+12;5,7205462;18,510052;2,5333846;0,0983493;1,7217237;-0,56169057;-11,7;-24,9;-29,099998;?1,3644E+12;7,913422;19,517958;1,4165162;0,40286562;1,5464053;-1,2327261;-11,04;-24,539999;-29,76;?1,3644E+12;1,3484144;13,511385;-0,38136974;-0,021685716;1,2052372;-0,6805039;-9,66;-24,119999;-31,26;?1,3644E+12;-0,19068487;9,043911;0,5992953;-0,258396;0,11759156;0,691194;-8,88;-23,88;-31,8;?1,3644E+12;-0,38136974;8,008764;1,484618;-0,3304781;-0,8686504;1,3588698;-8,099999;-23,519999;-32,34;?1,3644E+12;0,040861044;8,22669;3,1190596;-0,19608775;-1,0430524;1,3319917;-7,5;-23,4;-32,94;?1,3644E+12;-0,14982383;7,518432;2,2064962;0,051618114;-0,20280726;1,0097603;-6,54;-22,8;-33,899998;?1,3644E+12;-1,879608;6,496906;1,1849703;0,32375857;0,8536842;0,21105394;-6,06;-22,439999;-34,14;?1,3644E+12;-4,1542063;5,0259085;0,81722087;0,4120286;0,79473567;-0,017104227;-5,46;-22,38;-34,5;?1,3644E+12;-5,952092;3,8681788;1,3620348;0,48502702;-0,33750305;-0,30940324;-4,2599998;-22,199999;-35,16;?1,3644E+12;-5,053149;5,529861;1,5390993;0,40775254;-1,2043208;-0,44990227;-3,84;-22,32;-35,28;?1,3644E+12;-0,92618364;11,509193;2,0158114;0,36865717;-1,2742649;-0,6728681;-3;-22,5;-35,579998;?1,3644E+12;0,6946377;17,011814;2,3699405;0,35735616;-1,0015136;-0,8888089;-2,6399999;-22,8;-35,52;?1,3644E+12;1,9068487;19,218311;4,004382;0,453262;-1,0027353;-1,0595458;-2,34;-22,98;-35,34;?1,3644E+12;3,1599207;19,477097;5,8976107;1,5467108;-1,6383406;-1,8017471;-2,1599998;-23,1;-35,16;?1,3644E+12;4,30403;18,074202;7,5456724;1,9599612;-0,8903361;-2,2519548;-2,1599998;-23,76;-34,62;?1,3644E+12;3,2961242;12,707785;7,4911914;1,642922;0,67011917;-1,8716911;-2,1599998;-24,3;-34,26;?1,3644E+12;0,16344418;5,5434813;6,973618;1,1294898;1,450805;-0,89461213;-1,74;-25,38;-33,12;?1,3644E+12;-0,313268;5,5843425;6,851035;0,8555168;1,599856;-0,20311269;-1,26;-25,98;-32,76;?1,3644E+12;-0,6537767;7,273266;6,973618;0,5907067;1,2082914;-0,11728613;-0,9;-26,64;-32,46;?1,3644E+12;1,253072;8,267551;7,246025;0,35033122;0,24862215;-0,12217305;-0,12;-27,66;-31,32;?1,3644E+12;2,083913;7,5320525;6,8237944;0,26358834;0,07819075;-0,30940324;0,29999998;-28,14;-30,84;?1,3644E+12;2,4380422;6,905516;6,4424243;0,19700404;0,1704314;-0,37965274;0,65999997;-28,68;-30,359999;?1,3644E+12;3,3097446;4,8897047;5,8567495;0,15302174;0,4560109;-0,29077184;1,38;-29,699999;-29,46;?1,3644E+12;3,7455957;4,7126403;5,87037;0,18020524;1,3811663;-0,10415252;1,8;-30,24;-29,099998;?1,3644E+12;3,9499009;5,339176;5,570722;0,18142697;2,1584923;0,022602014;2,76;-31,32;-28,38;?1,3644E+12;3,4323275;5,829509;4,4810944;0,09101892;2,6844473;0,19975294;3,3;-31,56;-28,14;?1,3644E+12;3,2825038;7,164303;3,0237172;-0,10262536;2,758973;0,48502702;4,14;-32,04;-27,96;?1,3644E+12;3,3506055;10,637491;2,5606253;-0,376293;2,627637;0,70402217;4,8599997;-32,28;-27,9;?1,3644E+12;3,4187074;15,731502;1,1168685;-0,6646214;2,3991733;0,88270026;6,24;-32,64;-27,96;?1,3644E+12;3,8681788;17,406805;0,50395286;-0,86254174;2,1157317;0,95478237;6,8999996;-32,82;-27,72;?1,3644E+12;4,7943625;19,463476;-0,47671217;-0,93523467;1,9398025;0,86437434;8,28;-33,059998;-27,359999;?1,3644E+12;4,6445384;18,441952;-0,7218784;-0,87689704;2,057394;0,78954333;9,059999;-33,18;-27,359999;?1,3644E+12;3,568531;15,608918;-0,7763598;-0,86132;2,0882428;1,0580186;9,78;-33,3;-27,359999;?1,3644E+12;1,0623871;11,127824;-0,61291564;-0,89827734;1,5974126;1,4828753;10,559999;-33,48;-27,3;?1,3644E+12;1,0623871;8,771504;-0,3405087;-0,95356065;0,97158116;1,9752327;11,34;-33,48;-27,24;?1,3644E+12;-0,58567494;6,1563973;0,05448139;-1,0241156;0,45540005;2,2944098;11,94;-33,78;-27,3;?1,3644E+12;-0,013620348;5,0803895;-0,27240697;-1,1294898;0,4361578;2,4672847;12,84;-33,66;-27,599998;?1,3644E+12;0,027240695;6,5922484;-0,8308412;-1,2782356;0,9111055;2,511267;13,139999;-33,66;-27,779999;?1,3644E+12;-0,20430522;7,709117;-1,4165162;-1,416902;1,767844;2,1905627;13,2;-33,6;-28,019999;?1,3644E+12;-0,5992953;11,413852;-2,73769;-1,4165965;1,677436;1,8084666;12,84;-33,059998;-28,92;?1,3644E+12;-0,3949901;12,993812;-3,0237172;-1,2672399;0,9630291;1,4181237;12,599999;-32,88;-29,16;?1,3644E+12;0,6401563;12,980191;-2,4789033;-0,9776898;-0,09132435;1,1108584;12,059999;-32,46;-30,3;?1,3644E+12;0,6401563;12,980191;-2,4789033;-0,84116143;-0,5925393;1,2119566;12,059999;-32,46;-30,3;?1,3644E+12;0,6401563;12,980191;-2,4789033;-0,90041536;-1,1814134;1,4697418;12,059999;-32,46;-30,3;?1,3644E+12;0,6401563;12,980191;-2,4789033;-0,840856;-1,6368134;1,5497651;12,059999;-32,46;-30,3;?1,3644E+12;-0,8036005;7,913422;-0,24516626;-0,79443026;-1,5494597;1,3680327;10,74;-31,859999;-31,5;?1,3644E+12;-1,0623871;5,4890003;-0,027240695;-0,7330383;-0,8008443;1,1316279;9,84;-31,38;-32,04;?1,3644E+12;-1,1849703;3,9090397;0,3949901;-0,6954701;0,053145275;0,96577793;8,88;-30,84;-32,76;?1,3644E+12;-3,336985;-1,1168685;1,8251266;-0,6035349;0,54153204;0,8176431;7,68;-30,3;-33,42;?1,3644E+12;-4,0588636;-2,547005;2,7240696;-0,52687126;0,32375857;0,7098254;6,72;-29,88;-34,02;?1,3644E+12;0,2860273;2,6151068;4,8760843;-0,5403103;-0,06719518;0,6603453;5,04;-28,619999;-35,219997;?1,3644E+12;5,202973;10,2152605;5,5162406;-0,5403103;-0,13255776;0,5006041;3,36;-27,48;-36,48;?1,3644E+12;10,528529;18,537292;6,9599977;-0,31887165;-0,050396383;-0,19730948;2,28;-26,46;-37,32;?1,3644E+12;13,661209;19,463476;6,9599977;0,49632803;-0,23915374;-1,3072516;1,1999999;-25,619999;-37,98;?1,3644E+12;9,724928;15,608918;8,281172;0,8793405;-0,7690793;-1,2269229;0,24;-24,96;-38,16;?1,3644E+12;4,385752;12,190211;6,2108784;0,9425651;-0,68294734;-0,45631635;-0,17999999;-24,6;-38,399998;?1,3644E+12;2,8738933;9,479762;5,570722;1,239751;-0,21930063;0,2302962;-0,12;-24,6;-38,46;?1,3644E+12;0,92618364;4,1269655;5,6524444;1,5683966;0,68752885;0,34880406;-0,17999999;-24,96;-38,46;?1,3644E+12;-0,42223078;2,4244218;5,8158884;1,7602082;1,432479;0,13408493;-0,06;-25,019999;-38,219997;?1,3644E+12;-3,5140498;-2,1656353;5,3527966;1,7504344;1,3304645;-0,29168814;0,35999998;-25,74;-37,68;?1,3644E+12;-4,0861044;-3,5140498;4,9986677;1,609019;0,43310347;-0,57360244;0,96;-26,699999;-37,26;?1,3644E+12;-1,920469;-2,2473574;4,2904096;1,3683381;-0,95905846;-0,39522982;1,38;-27,66;-36,6;?1,3644E+12;-0,5992953;-0,9670447;3,486809;1,2247849;-0,66675943;-0,3659083;1,62;-28,26;-36,36;?1,3644E+12;2,1247742;1,8659877;1,7706453;1,0387764;0,6151413;-0,48075095;1,9799999;-29,519999;-35,52;?1,3644E+12;4,1542063;5,570722;-0,43585113;1,0259482;2,035403;-0,68294734;2,28;-30,48;-34,739998;?1,3644E+12;4,8488436;14,546532;-3,405087;1,0503827;2,8930578;-1,0418307;3,06;-31,5;-34,02;?1,3644E+12;4,385752;18,278507;-5,09401;0,7293731;2,6945267;-1,6530013;3,78;-31,859999;-33,48;?1,3644E+12;3,3778462;19,504337;-0,53119355;0,53878313;-0,03481932;-2,535396;5,4;-32,579998;-32,76;?1,3644E+12;3,7319753;17,747313;-0,12258313;0,42058071;-0,95172805;-2,1557434;6,3599997;-32,82;-32,399998;?1,3644E+12;3,0645783;15,881326;-0,9670447;0,118202426;-1,7009543;-1,808772;7,2;-32,94;-31,98;?1,3644E+12;-0,12258313;10,54215;0,08172209;0,011301007;-2,2553146;-1,0201449;8,82;-33,059998;-31,019999;?1,3644E+12;-0,05448139;7,4230895;2,002191;0,2883284;-2,2721133;-0,33567044;9,719999;-33,3;-30,66;?1,3644E+12;1,8932283;4,508335;6,238119;0,4783075;-1,4010195;-0,014355334;11,46;-33,3;-29,88;?1,3644E+12;3,0645783;3,990762;6,891896;0,36957347;-1,0277808;-0,028405234;12,42;-33,42;-29,699999;?1,3644E+12;3,7728362;3,445948;6,2244987;0,0729984;-0,3753767;-0,06505715;13,259999;-33,42;-29,46;?1,3644E+12;3,6502533;3,13268;5,47538;-0,040317107;0,87781334;-0,204029;14,219999;-33,54;-29,22;?1,3644E+12;2,547005;5,3800373;4,0588636;0,3463606;1,7345519;-0,38423425;15,719999;-33,6;-28,859999;?1,3644E+12;3,5140498;10,160779;3,8954194;0,9068295;2,200642;-0,5665775;16,56;-33,48;-28,56;?1,3644E+12;6,374323;19,014006;8,7034025;1,568702;2,6868908;-1,0137309;17,82;-33,6;-27,779999;?1,3644E+12;9,316318;19,463476;13,988097;1,0705414;3,4642167;-2,160325;18,48;-33,719997;-27,24;?1,3644E+12;10,56939;19,517958;10,242501;1,1169671;3,8151588;-2,2427917;19,199999;-33,899998;-26,699999;?1,3644E+12;2,1247742;18,687117;0,313268;-1,4468343;2,9776626;-1,3014483;21,3;-34,079998;-25,5;?1,3644E+12;-2,9556155;10,18802;2,1656353;-2,4853053;2,4459045;1,0852021;22,32;-34,14;-25,019999;?1,3644E+12;-2,4516625;1,9885708;2,3018389;-1,6313156;2,182927;3,0980031;23,34;-34,079998;-24,539999;?1,3644E+12;-2,4516625;1,9885708;2,3018389;-1,5952746;1,0784826;2,7229319;23,34;-34,079998;-24,539999;?1,3644E+12;-1,2258313;5,597963;2,3018389;-1,7650951;0,5015204;2,651766;25,14;-34,44;-23,82;?1,3644E+12;0,19068487;4,8352237;2,5333846;-2,112983;-0,4016439;2,8845057;25,74;-34,5;-23,58;?1,3644E+12;1,253072;3,6093922;3,0645783;-2,5970936;-0,81061816;3,0836477;26,34;-34,68;-23,46;?1,3644E+12;2,0294318;2,982856;2,901134;-2,5573874;-0,34513888;3,118467;26,58;-34,86;-23,34;?1,3644E+12;2,4516625;3,5004294;1,5118586;-2,4669793;0,398895;3,087313;26,519999;-35,16;-23,58;?1,3644E+12;1,4573772;4,671779;-0,10896278;-2,4193318;1,0057896;2,9987376;26,16;-35,34;-23,82;?1,3644E+12;-0,095342435;7,9679036;-4,767122;-2,4077253;1,2809844;2,792265;25,08;-35,399998;-24,779999;?1,3644E+12;-0,58567494;12,231072;-7,8998017;-2,4666739;0,9401216;2,3057108;24,24;-35,28;-25,56;?1,3644E+12;-1,0760075;17,99248;-10,051817;-2,5143213;0,4810564;1,8713857;23,22;-35,04;-26,58;?1,3644E+12;-1,607201;19,327274;-9,479762;-1,5625933;-2,6868908;-0,111177474;21,84;-34,86;-27,66;?1,3644E+12;0,7082581;17,692831;-4,739881;-0,22174409;-5,266269;-1,1881329;18,66;-34,68;-29,82;?1,3644E+12;1,7434045;12,9529505;-3,255263;0,6560693;-5,4932055;-2,3472497;16,8;-34,38;-30,9;?1,3644E+12;0,7354988;7,327747;-0,2860273;1,382999;-3,2100968;-2,5445592;14,88;-34,14;-31,92;?1,3644E+12;0,7354988;7,327747;-0,2860273;2,1401663;0,1160644;-2,659402;13,32;-33,96;-32,94;?1,3644E+12;0,7354988;7,327747;-0,2860273;2,814867;2,607173;-2,7382035;13,32;-33,96;-32,94;?1,3644E+12;-1,7570249;3,3506055;6,1563973;3,3793066;3,6282341;-3,1202996;12,36;-34,14;-33,6;?1,3644E+12;-6,7284517;14,124301;7,981524;2,4859161;2,547919;-3,4370334;11,759999;-34,26;-34,02;?1,3644E+12;-12,190211;13,34794;15,023244;-0,20189096;-5,0481906;-3,032335;12;-34,5;-33,78;?1,3644E+12;-6,2517395;13,361561;9,152874;0,75716746;-8,523403;-2,8545732;12,42;-34,68;-33,6;?1,3644E+12;18,578154;19,477097;9,970095;0,9602802;-4,824919;-3,2314773;12,48;-34,98;-33,48;?1,3644E+12;16,644066;19,477097;8,253931;2,617863;6,4934974;-4,7171016;13,08;-35,34;-32,7;?1,3644E+12;11,495573;15,309271;4,8352237;1,7592919;9,727418;-3,84051;13,92;-35,579998;-31,98;?1,3644E+12;4,399372;10,978001;1,1168685;0,94989544;9,414655;-3,4926221;15,179999;-36;-30,96;?1,3644E+12;-8,21307;3,5412905;4,1814466;0,81245077;6,1926465;0,112399206;18,48;-36,42;-27,84;?1,3644E+12;-8,21307;3,5412905;4,1814466;0,36285394;1,8060231;0,070249505;18,48;-36,42;-27,84;?1,3644E+12;-3,255263;8,240311;8,117727;-0,09865474;-2,1361957;-0,35063666;22,74;-37,2;-24,119999;?1,3644E+12;2,070293;8,090487;7,8589406;-0,16707164;-3,071125;-0,25961772;25,14;-37,5;-22,199999;?1,3644E+12;7,246025;8,580819;8,185829;-0,40225476;-2,0912971;-0,691194;27,48;-37,559998;-20,46;?1,3644E+12;7,3958488;7,8317;9,193735;-0,5891795;-0,30573806;-1,2495248;30,72;-37,2;-17,76;?1,3644E+12;6,1291566;6,7965536;9,547864;-0,7837401;0,8594874;-1,1032226;31,98;-36,899998;-16,8;?1,3644E+12;5,2574544;4,263169;8,853226;-1,071763;1,3393221;-0,001221731;34,32;-36,059998;-15,179999;?1,3644E+12;6,0201936;4,1542063;8,417375;-1,1597277;1,459968;0,36102137;36,059998;-35,579998;-14,219999;?1,3644E+12;8,008764;6,701211;8,567199;-1,3921618;1,8295414;0,8151997;37,62;-35,16;-13,32;?1,3644E+12;8,5944395;10,746454;8,60806;-1,9208658;3,035084;1,2238685;38,94;-34,739998;-12,66;?1,3644E+12;9,370799;18,700737;7,7772183;-2,322204;3,8114936;1,3368785;40,68;-33,899998;-11,58;?1,3644E+12;9,547864;19,422615;6,428804;-2,6450465;3,658472;1,534188;40,98;-33,66;-11,46;?1,3644E+12;5,7886477;19,517958;-2,4108016;-2,7302623;3,054021;1,9327776;41,46;-33,18;-12,059999;?1,3644E+12;3,5821514;19,517958;-2,819412;-3,7357464;2,3765712;3,40985;41,7;-33,059998;-12,42;?1,3644E+12;0,21792556;19,517958;-1,9749504;-3,8988473;1,5503759;3,7604864;41,579998;-32,82;-12,78;?1,3644E+12;-0,58567494;18,224026;-1,2803127;-3,642284;-1,1963795;4,6743407;40,98;-32,88;-13,74;?1,3644E+12;0,54481393;15,731502;-0,9670447;-3,2473598;-1,8903224;5,168836;40,44;-33,18;-14,219999;?1,3644E+12;4,1269655;12,871228;-0,19068487;-2,9675834;-1,488984;5,3863044;38,28;-33,66;-15,599999;?1,3644E+12;4,5900574;13,0619135;-0,42223078;-2,896723;-0,659429;5,331021;36,96;-33,96;-16,68;?1,3644E+12;2,3699405;12,980191;-1,6889231;-2,796541;0,1591304;4,9971833;33,48;-34,68;-18,539999;?1,3644E+12;0,38136974;12,762266;-3,0237172;-2,5647178;1,4648548;4,4180827;31,5;-34,8;-19,619999;?1,3644E+12;-0,7899802;13,184497;-4,399372;-2,424524;1,7846428;3,839288;29,34;-35,04;-20,88;?1,3644E+12;-7,0280995;12,067628;-8,866846;-2,1459696;1,6881261;2,83808;25,26;-35,46;-23,64;?1,3644E+12;-11,100583;9,997335;-8,444615;-1,6872098;0,97310835;1,6383406;23,22;-35,52;-25,14;?1,3644E+12;-11,604536;7,246025;-7,177923;-0,70463306;-1,138042;-0,079107046;21,18;-35,46;-26,58;?1,3644E+12;-8,471856;6,26536;-3,255263;-0,47403142;-1,5479325;-0,63591075;18,779999;-35,219997;-28,08;?1,3644E+12;-6,67397;10,841797;-2,8875136;0,070554934;-1,6062702;-1,954158;16,74;-34,92;-29,46;?1,3644E+12;-5,829509;14,818938;-1,9885708;0,66431594;-1,750129;-2,9907963;14,82;-34,68;-30,48;?1,3644E+12;-4,903325;17,583868;-1,0896279;1,9113973;-2,654515;-4,061643;13,0199995;-34,38;-31,619999;?1,3644E+12;-0,27240697;18,115063;0,9670447;2,928488;-2,2156084;-4,355469;10,139999;-33,66;-33,42;?1,3644E+12;3,2961242;14,587393;2,819412;4,154189;0,22357668;-4,2708645;8,82;-33,36;-34,02;?1,3644E+12;3,759216;13,770171;3,8681788;4,8252244;2,1496348;-4,28186;8,82;-33,42;-34,26;?1,3644E+12;3,9499009;14,001718;4,4810944;5,0833154;3,1151073;-4,30996;9,179999;-33,66;-34,02;?1,3644E+12;4,0861044;14,628253;4,0861044;5,4290648;4,7601676;-4,2971315;10,0199995;-34,079998;-33,6;?1,3644E+12;3,8681788;15,200308;2,5333846;5,2455;5,3746977;-3,762319;11,219999;-34,38;-32,76;?1,3644E+12;0,32688835;14,955142;1,1849703;4,7030516;5,191133;-3,4810157;14,46;-35,16;-29,22;?1,3644E+12;-2,2609777;14,88704;2,2473574;4,488943;4,9690833;-3,526525;16,32;-35,52;-26,88;?1,3644E+12;-5,284695;17,161638;7,559293;3,969097;2,7528641;-3,1187725;20,52;-36,059998;-21,3;?1,3644E+12;-5,0259085;18,01972;10,106298;3,4910948;0,3631594;-2,538145;22,8;-36,3;-18,359999;?1,3644E+12;-5,0259085;18,01972;10,106298;2,7437012;-1,7357736;-2,1728477;22,8;-36,3;-18,359999;?1,3644E+12;-1,8659877;14,437569;9,697687;1,7269161;-2,8793132;-1,806634;25,199999;-36,48;-15,48;?1,3644E+12;1,2666923;9,602345;10,18802;1,0228939;-2,9816332;-1,3469579;30,359999;-35,94;-9,36;?1,3644E+12;2,152015;8,880466;10,351464;0,47800204;-2,4801128;-0,9388999;33,059998;-35,52;-6,48;?1,3644E+12;3,7864566;8,444615;10,378705;-0,010690142;-1,6881261;-0,5534439;35,64;-34,92;-3,9599998;?1,3644E+12;5,243834;8,281172;9,507003;-0,49449542;-0,5626069;-0,24404067;38,1;-34,14;-1,4399999;?1,3644E+12;5,243834;8,281172;9,507003;-0,85062987;0,68661255;-0,014966198;40,32;-33,3;0,96;?1,3644E+12;4,9986677;8,458236;8,512717;-1,2644911;2,0228803;0,33383787;42,12;-32,28;3,12;?1,3644E+12;3,9635212;9,125633;6,932757;-1,4920384;2,5977044;0,5558874;43,68;-31,32;5,16;?1,3644E+12;2,6014864;13,865514;5,8976107;-1,6688838;3,0772338;0,64904433;45,78;-29,64;8,34;?1,3644E+12;2,6014864;13,865514;5,8976107;-2,2293527;2,996294;0,7867944;45,78;-29,64;8,34;?1,3644E+12;1,5527196;12,5579605;4,385752;-2,5787675;2,4572055;0,9954049;46,86;-28,5;9,84;?1,3644E+12;2,315459;14,996003;4,426613;-2,9000828;2,5259278;0,9440922;47,1;-28,08;10,32;?1,3644E+12;2,6014864;17,22974;4,6445384;-3,150843;2,8561006;0,7654142;47,16;-28,019999;10,62;?1,3644E+12;2,9964764;19,381754;4,372132;-3,4235942;2,8780916;0,5864306;47,16;-28,08;10,74;?1,3644E+12;3,1871614;19,517958;1,525479;-3,6685512;2,5793786;0,5369505;46,62;-28,619999;10,679999;?1,3644E+12;1,920469;19,517958;-0,19068487;-4,057367;1,9336939;0,75747293;46,079998;-29,099998;10,44;?1,3644E+12;0,12258313;19,354513;-1,3756552;-4,4186935;1,006095;1,2299771;44,579998;-30,599998;10,139999;?1,3644E+12;0,6401563;18,768839;-1,5390993;-4,718934;-0,056199603;1,829236;43,86;-31,5;9,9;?1,3644E+12;1,5799603;18,087822;-1,4165162;-5,0148983;-0,8417723;2,7406468;42,899998;-32,52;9,3;?1,3644E+12;2,9964764;18,169544;-2,3426998;-5,1208835;-0,63499445;3,3469307;40,739998;-34,559998;7,3199997;?1,3644E+12;3,4187074;17,829035;-1,7570249;-5,1740284;0,20066923;3,80172;39,54;-35,52;5,8799996;?1,3644E+12;2,6968288;16,344418;-0,980665;-5,1618114;1,5268577;3,9284744;36,54;-37,079998;2,34;?1,3644E+12;2,0566726;15,799603;-1,0351465;-5,002681;1,9569068;3,633121;34,92;-37,8;0,12;?1,3644E+12;0,7218784;14,124301;-1,2666923;-4,7064114;2,0332649;3,2696562;33,3;-38,219997;-2,1;?1,3644E+12;-0,3405087;8,417375;-0,313268;-3,2058208;-0,32834008;2,3735168;26,699999;-38,76;-12,36;?1,3644E+12;-0,3405087;8,417375;-0,313268;-3,2058208;-0,32834008;2,3735168;26,699999;-38,76;-12,36;?1,3644E+12;-0,3405087;8,417375;-0,313268;-3,2058208;-0,32834008;2,3735168;26,699999;-38,76;-12,36;?1,3644E+12;0,35412905;7,763598;-0,44947147;-2,5735753;-0,52748215;2,0912971;25,14;-38,579998;-14,7;?1,3644E+12;0,3949901;6,5241466;-0,5992953;-1,924531;-0,28221974;1,7660115;21,9;-37,8;-19,92;?1,3644E+12;-0,40861043;5,6252036;-0,61291564;-0,9969321;0,06780604;1,3283265;20,16;-37,32;-22,26;?1,3644E+12;-1,6344417;5,0803895;-1,0079057;-0,6954701;0,065973446;1,1869112;18,539999;-36,6;-24,359999;?1,3644E+12;-2,5197644;5,7750273;-0,9670447;0,30726522;-0,48808134;0,5919284;15,48;-35,1;-27,9;?1,3644E+12;-2,2745981;6,0201936;-0,43585113;1,102001;-1,0598512;0,22235495;14,28;-34,38;-29,519999;?1,3644E+12;-1,0079057;6,1563973;0,50395286;1,949271;-1,3246613;-0,05497787;13,259999;-33,66;-30,72;?1,3644E+12;-0,2860273;6,4424243;0,9670447;2,7974575;-1,0082331;-0,33933565;12,24;-33,059998;-31,8;?1,3644E+12;1,0623871;8,962189;1,7978859;3,5851681;-0,32559118;-0,7079928;11,4;-32,579998;-32,399998;?1,3644E+12;1,3756552;11,168685;1,96133;4,2916336;0,40133846;-1,03786;10,62;-32,399998;-32,88;?1,3644E+12;1,4165162;12,312795;1,6616824;5,1477613;1,3515394;-1,4520267;10,0199995;-32,52;-32,94;?1,3644E+12;0,51757324;13,579487;1,5799603;5,4874024;1,9385809;-1,5656476;9,24;-32,88;-32,04;?1,3644E+12;-0,50395286;13,824653;1,7978859;5,6779923;2,214081;-1,4434745;9,3;-33,54;-30,9;?1,3644E+12;-0,89894295;13,919995;2,5197644;5,5784216;1,7244726;-1,1899655;9,3;-34,92;-27,96;?1,3644E+12;-0,35412905;14,028958;2,7649305;5,2849007;1,4804319;-1,1609493;9,54;-35,88;-26,16;?1,3644E+12;-0,05448139;14,137921;3,4731886;5,0512447;1,7996091;-1,1801916;10,08;-36,78;-24,06;?1,3644E+12;-0,55843425;13,838273;4,276789;4,297437;2,0540345;-1,0231993;10,559999;-37,62;-21,6;?1,3644E+12;-1,8115063;13,116395;5,134871;3,8411207;1,7935003;-0,79168135;11,4;-38,52;-18,84;?1,3644E+12;-2,5742457;12,884849;5,7477865;3,426954;1,1209377;-0,61178154;12,179999;-39,3;-15,96;?1,3644E+12;-3,5549107;13,892755;7,5865335;2,763249;-0,17867808;-0,34513888;13,559999;-40,559998;-9,48;?1,3644E+12;-3,445948;13,538626;8,281172;2,221717;-0,8313876;-0,21655174;14,5199995;-41,04;-6,06;?1,3644E+12;-3,13268;12,857608;8,512717;1,9123137;-1,0296134;-0,12767084;15,54;-41,46;-3;?1,3644E+12;-3,13268;12,857608;8,512717;1,0525209;-0,8723156;0,079107046;15,54;-41,46;-3;?1,3644E+12;-0,43585113;9,833891;8,3765135;0,6936375;0,1020145;0,16310102;16,44;-41,64;0,12;?1,3644E+12;1,0760075;10,446807;7,84532;0,42821655;1,5479325;0,20616703;18,06;-41,34;5,8199997;?1,3644E+12;0,8036005;10,637491;7,43671;0,12614368;2,9055805;0,2574797;18,66;-41,16;8,58;?1,3644E+12;-0,8580819;10,664732;6,5922484;-0,19242255;3,5069773;0,27855456;18,96;-40,739998;10,8;?1,3644E+12;-1,7025435;10,909899;5,6660647;-0,50488013;3,1597004;0,2929099;19,199999;-40,379997;13,0199995;?1,3644E+12;-0,19068487;14,641873;5,7886477;-0,8151997;2,6190848;0,13744467;19,199999;-39,66;16,68;?1,3644E+12;0,2860273;14,9006605;5,1484914;-1,2174544;2,5335636;-0,012522738;18,96;-39,239998;18,24;?1,3644E+12;0,27240697;12,653303;3,568531;-1,6074919;2,2962425;-0,029321533;18,66;-38,76;19,32;?1,3644E+12;0,27240697;12,190211;2,6832085;-1,772731;1,9327776;0,035124753;18,119999;-38,34;20,039999;?1,3644E+12;1,4437568;14,2877445;3,3233647;-1,7608191;1,7742581;0,07452556;17,16;-38,1;20,88;?1,3644E+12;1,8115063;15,077724;3,636633;-1,7296649;1,9486601;-0,09743301;16,68;-37,98;21;?1,3643E+12;3,5140498;6,4832854;4,0452433;0,52015173;0,9056077;0,044898596;-5,58;-41,04;-1,26;?1,3643E+12;2,9964764;7,409469;4,3312707;0,5821546;1,2479976;-0,090713486;-5,4;-41,46;-0,29999998;?13232,3643E+12;23232,9964764;73232,409469;43232,3312707;132132112,5821546;1323232,2479976;-31321321,090713486;-5312321321,4;-41312321321,46;-0,29999998;?